onset	duration	Block	Phase	Trial	Cue	Image	CorrResp	Resp	Accuracy	ISI	RT_from_CueOnset	ITI
0.5	3	2	2	101	1	1	1	1	1	4	6.67	5.00E-01
9.28	3	2	2	102	1	2	2	1	0	6	0.99	5.00E-01
20.05	3	2	2	103	2	1	1	1	1	8	9.67	6.50E+00
38.82	3	2	2	104	3	3	3	3	1	8	0.91	8
59.09	3	2	2	105	3	3	3	3	1	8	0.73	5.00E-01
71.86	3	2	2	106	3	3	3	3	1	4	0.86	1.50E+00
81.64	3	2	2	107	2	2	2	2	1	4	5.77	4.50E+00
94.41	3	2	2	108	1	2	2	1	0	4	1.55	5.50E+00
108.17	3	2	2	109	4	4	4	4	1	8	0.85	8
128.44	3	2	2	110	4	4	4	4	1	6	0.73	1.50E+00
140.21	3	2	2	111	4	4	4	4	1	6	0.64	5.00E-01
150.99	3	2	2	112	3	4	4	3	0	4	1.37	3.50E+00
162.76	3	2	2	113	4	3	3	3	1	8	10.8	6.50E+00
181.53	3	2	2	114	3	3	3	3	1	4	2.16	3.50E+00
193.3	3	2	2	115	2	1	1	2	0	4	7.17	3.50E+00
205.06	3	2	2	116	2	2	2	2	1	6	7.85	4.50E+00
219.83	3	2	2	117	3	3	3	3	1	4	0.96	1.50E+00
229.62	3	2	2	118	3	3	3	3	1	8	10.1	1.50E+00
243.38	3	2	2	119	2	2	2	2	1	4	7.34	2.50E+00
254.15	3	2	2	120	4	4	4	4	1	6	0.97	8
272.42	3	2	2	121	4	4	4	4	1	8	0.97	5.00E-01
285.19	3	2	2	122	2	2	2	2	1	6	1.35	5.00E-01
295.95	3	2	2	123	1	1	1	1	1	4	0.79	5.00E-01
304.74	3	2	2	124	1	2	2	1	0	8	9.5	1.50E+00
318.52	3	2	2	125	4	3	3	4	0	4	0.83	6.50E+00
333.29	3	2	2	126	3	4	4	4	1	6	9.33	8
351.56	3	2	2	127	2	2	2	2	1	6	1.22	5.50E+00
367.33	3	2	2	128	3	3	3	4	0	6	8.54	5.50E+00
383.09	3	2	2	129	4	4	4	4	1	8	10.85	5.00E-01
395.86	3	2	2	130	1	2	2	1	0	8	1.29	1.50E+00
409.63	3	2	2	131	3	3	3	4	0	6	9.4	3.50E+00
423.4	3	2	2	132	1	2	2	2	1	4	7.57	4.50E+00
436.16	3	2	2	133	1	1	1	2	0	8	10.54	5.00E-01
448.93	3	2	2	134	4	4	4	4	1	8	10.23	2.50E+00
463.7	3	2	2	135	4	4	4	4	1	6	0.75	5.00E-01
474.47	3	2	2	136	1	1	1	1	1	8	10.81	8
494.73	3	2	2	137	2	1	1	2	0	8	0.79	5.00E-01
507.5	3	2	2	138	2	2	2	1	0	4	7.01	5.00E-01
516.29	3	2	2	139	4	4	4	4	1	6	1	3.50E+00
530.05	3	2	2	140	1	1	1	2	0	8	11.08	5.00E-01
542.82	3	2	2	141	1	1	1	2	0	6	8	1.50E+00
554.59	3	2	2	142	3	3	3	3	1	6	1.41	8
572.86	3	2	2	143	4	3	3	4	0	4	1.91	5.00E-01
581.62	3	2	2	144	4	4	4	4	1	4	7.23	5.00E-01
590.41	3	2	2	145	3	4	4	3	0	8	2.29	1.50E+00
604.17	3	2	2	146	2	2	2	2	1	8	11.05	6.50E+00
622.94	3	2	2	147	4	4	4	3	0	4	7.77	7.50E+00
638.71	3	2	2	148	1	1	1	1	1	4	5.87	5.00E-01
647.49	3	2	2	149	2	1	1	2	0	6	0.97	2.50E+00
660.26	3	2	2	150	4	4	4	3	0	8	10.45	3.50E+00
676.03	3	2	2	151	4	4	4	4	1	8	0.91	8
696.3	3	2	2	152	3	4	4	3	0	8	10.01	4.50E+00
713.07	3	2	2	153	1	1	1	1	1	4	6.87	8
729.33	3	2	2	154	4	4	4	4	1	4	3.18	5.00E-01
738.12	3	2	2	155	2	2	2	2	1	8	9.88	1.50E+00
751.88	3	2	2	156	2	2	2	2	1	4	1.11	1.50E+00
761.65	3	2	2	157	1	1	1	1	1	4	6.3	3.50E+00
773.42	3	2	2	158	2	2	2	2	1	6	0.73	1.50E+00
785.19	3	2	2	159	3	3	3	4	0	6	7.9	5.00E-01
795.95	3	2	2	160	1	1	1	1	1	6	8.34	8
814.22	3	2	2	161	1	2	2	1	0	6	1	4.50E+00
828.99	3	2	2	162	3	3	3	3	1	6	1.05	2.50E+00
841.76	3	2	2	163	3	3	3	3	1	8	1.54	6.50E+00
860.53	3	2	2	164	1	1	1	1	1	8	1.04	7.50E+00
880.29	3	2	2	165	4	3	3	4	0	6	0.81	4.50E+00
895.06	3	2	2	166	2	1	1	2	0	4	1	5.00E-01
903.84	3	2	2	167	2	2	2	2	1	4	6.47	1.50E+00
913.63	3	2	2	168	4	4	4	4	1	4	1.97	2.50E+00
924.41	3	2	2	169	2	1	1	2	0	8	2.51	5.00E-01
937.18	3	2	2	170	1	1	1	1	1	6	7.91	1.50E+00
948.95	3	2	2	171	1	1	1	1	1	6	9.3	3.50E+00
962.72	3	2	2	172	3	3	3	3	1	4	1.83	3.50E+00
974.48	3	2	2	173	2	1	1	2	0	6	0.96	3.50E+00
988.25	3	2	2	174	3	3	3	3	1	4	6.17	1.50E+00
998.03	3	2	2	175	1	1	1	1	1	6	8.37	1.50E+00
1009.8	3	2	2	176	3	3	3	3	1	6	1.29	1.50E+00
1021.57	3	2	2	177	4	4	4	4	1	6	0.85	1.50E+00
1033.34	3	2	2	178	3	3	3	3	1	8	1.38	1.50E+00
1047.1	3	2	2	179	2	2	2	2	1	8	0.84	3.50E+00
1062.87	3	2	2	180	2	2	2	2	1	8	0.82	5.00E-01