onset	duration	Block	Phase	Trial	Cue	Image	CorrResp	Resp	Accuracy	ISI	RT_from_CueOnset	ITI
0.52	2	1	1	1	3	3	3	3	1	1	2.59	5.00E-01
5.3	2	1	1	2	4	4	4	4	1	1	2.47	5.00E-01
10.08	2	1	1	3	3	3	3	3	1	1	2.09	5.00E-01
14.87	2	1	1	4	4	4	4	4	1	1	1.11	1.50E+00
20.65	2	1	1	5	3	3	3	3	1	1	0.62	5.00E-01
25.44	2	1	1	6	2	2	2	2	1	1	2.39	1.50E+00
31.22	2	1	1	7	1	1	1	1	1	1	2.35	5.00E-01
36	2	1	1	8	4	4	4	2	0	1	2.28	5.00E-01
40.79	2	1	1	9	1	2	2	1	0	1	1.24	5.00E-01
45.57	2	1	1	10	4	3	3	3	1	1	2.58	5.00E-01
50.35	2	1	1	11	2	1	1	1	1	1	1.99	5.00E-01
55.14	2	1	1	12	1	1	1	2	0	1	2.13	5.00E-01
59.92	2	1	1	13	3	4	4	3	0	1	2.11	5.00E-01
64.7	2	1	1	14	3	3	3	3	1	1	2.48	4.50E+00
73.49	2	1	1	15	1	1	1	1	1	1	2.42	1.50E+00
79.27	2	1	1	16	4	4	4	4	1	1	2.2	5.00E-01
84.06	2	1	1	17	3	3	3	3	1	1	2.29	1.50E+00
89.82	2	1	1	18	3	3	3	3	1	1	2.24	5.00E-01
94.61	2	1	1	19	3	4	4	3	0	1	1.15	5.00E-01
99.39	2	1	1	20	1	1	1	1	1	1	2.42	5.00E-01
104.17	2	1	1	21	3	4	4	3	0	1	2.1	1.50E+00
109.96	2	1	1	22	4	4	4	4	1	1	2.25	5.50E+00
119.74	2	1	1	23	4	3	3	3	1	1	2.4	5.00E-01
124.53	2	1	1	24	3	4	4	4	1	1	2.45	2.50E+00
131.31	2	1	1	25	1	1	1	1	1	1	2.4	3.50E+00
139.09	2	1	1	26	2	1	1	1	1	1	2.33	5.00E-01
143.88	2	1	1	27	1	1	1	1	1	1	2.19	4.50E+00
152.66	2	1	1	28	1	1	1	1	1	1	2.27	5.00E-01
157.44	2	1	1	29	1	1	1	1	1	1	2.16	1.50E+00
163.23	2	1	1	30	2	2	2	2	1	1	2.15	5.00E-01
168.01	2	1	1	31	2	2	2	2	1	1	1.04	5.00E-01
172.8	2	1	1	32	2	2	2	2	1	1	2.09	1.50E+00
178.58	2	1	1	33	2	1	1	1	1	1	2.29	2.50E+00
185.36	2	1	1	34	3	4	4	4	1	1	2.41	5.50E+00
195.15	2	1	1	35	4	4	4	4	1	1	2.34	5.00E-01
199.93	2	1	1	36	1	1	1	1	1	1	2.2	5.00E-01
204.71	2	1	1	37	3	3	3	3	1	1	2.14	8
216.98	2	1	1	38	4	3	3	3	1	1	2.35	5.00E-01
221.77	2	1	1	39	1	1	1	1	1	1	2.18	5.00E-01
226.55	2	1	1	40	2	1	1	2	0	1	2.14	2.50E+00
233.33	2	1	1	41	4	3	3	3	1	1	2.34	3.50E+00
241.12	2	1	1	42	4	4	4	4	1	1	2.3	2.50E+00
247.9	2	1	1	43	4	4	4	4	1	1	2.14	5.00E-01
252.68	2	1	1	44	4	3	3	3	1	1	2.3	3.50E+00
260.45	2	1	1	45	2	2	2	2	1	1	2.33	5.50E+00
270.22	2	1	1	46	4	4	4	4	1	1	2.41	5.00E-01
275	2	1	1	47	4	4	4	4	1	1	2.14	1.50E+00
280.79	2	1	1	48	2	2	2	2	1	1	2.1	1.50E+00
286.57	2	1	1	49	1	1	1	1	1	1	2.14	5.00E-01
291.35	2	1	1	50	2	2	2	2	1	1	2.11	1.50E+00
297.14	2	1	1	51	3	4	4	3	0	1	2.22	1.50E+00
302.92	2	1	1	52	3	3	3	3	1	1	2.24	5.00E-01
307.7	2	1	1	53	2	2	2	2	1	1	2.24	2.50E+00
314.49	2	1	1	54	2	2	2	2	1	1	2.2	5.00E-01
319.27	2	1	1	55	2	2	2	2	1	1	2.28	5.50E+00
329.06	2	1	1	56	1	2	2	2	1	1	2.39	3.50E+00
336.82	2	1	1	57	1	2	2	2	1	1	2.26	2.50E+00
343.61	2	1	1	58	3	3	3	3	1	1	2.38	5.00E-01
348.39	2	1	1	59	2	1	1	1	1	1	2.32	2.50E+00
355.16	2	1	1	60	4	3	3	3	1	1	2.32	5.50E+00
364.94	2	1	1	61	4	3	3	3	1	1	2.27	1.50E+00
370.73	2	1	1	62	2	2	2	2	1	1	2.27	5.00E-01
375.51	2	1	1	63	2	2	2	2	1	1	2.2	3.50E+00
383.29	2	1	1	64	3	3	3	3	1	1	2.26	5.00E-01
388.08	2	1	1	65	2	2	2	2	1	1	2.2	1.50E+00
393.86	2	1	1	66	1	2	2	2	1	1	2.28	5.00E-01
398.64	2	1	1	67	4	3	3	3	1	1	2.43	5.00E-01
403.43	2	1	1	68	1	1	1	1	1	1	2.22	4.50E+00
412.21	2	1	1	69	1	1	1	1	1	1	2.21	5.00E-01
417	2	1	1	70	4	4	4	4	1	1	2.27	1.50E+00
422.78	2	1	1	71	3	3	3	3	1	1	2.3	3.50E+00
430.56	2	1	1	72	1	2	2	2	1	1	2.39	8
442.83	2	1	1	73	4	3	3	3	1	1	2.32	1.50E+00
448.61	2	1	1	74	2	2	2	2	1	1	2.28	4.50E+00
457.4	2	1	1	75	1	1	1	1	1	1	2.4	5.00E-01
462.18	2	1	1	76	3	3	3	3	1	1	2.34	1.50E+00
467.97	2	1	1	77	3	4	4	4	1	1	2.32	5.00E-01
472.75	2	1	1	78	2	2	2	2	1	1	2.24	5.50E+00
482.52	2	1	1	79	3	3	3	3	1	1	2.34	1.50E+00
488.3	2	1	1	80	1	1	1	1	1	1	2.17	5.50E+00
498.08	2	1	1	81	1	1	1	1	1	1	2.34	5.00E-01
502.87	2	1	1	82	3	4	4	4	1	1	2.64	4.50E+00
511.65	2	1	1	83	2	2	2	2	1	1	2.4	1.50E+00
517.44	2	1	1	84	1	1	1	1	1	1	2.21	5.00E-01
522.22	2	1	1	85	3	4	4	4	1	1	2.49	3.50E+00
530	2	1	1	86	4	4	4	4	1	1	2.12	1.50E+00
535.79	2	1	1	87	2	2	2	2	1	1	2.15	1.50E+00
541.57	2	1	1	88	1	1	1	1	1	1	2.26	5.00E-01
546.35	2	1	1	89	1	1	1	1	1	1	2.17	1.50E+00
552.14	2	1	1	90	4	4	4	4	1	1	2.16	5.00E-01
556.92	2	1	1	91	4	4	4	3	0	1	1.55	3.50E+00
564.71	2	1	1	92	1	1	1	1	1	1	2.22	5.00E-01
569.49	2	1	1	93	2	2	2	2	1	1	2.26	5.00E-01
574.27	2	1	1	94	4	3	3	3	1	1	2.34	2.50E+00
581.06	2	1	1	95	3	3	3	3	1	1	2.25	5.00E-01
585.84	2	1	1	96	2	2	2	2	1	1	2.21	3.50E+00
593.62	2	1	1	97	3	4	4	4	1	1	2.4	5.00E-01
598.41	2	1	1	98	3	3	3	3	1	1	2.36	2.50E+00
605.19	2	1	1	99	2	2	2	2	1	1	2.15	1.50E+00
610.97	2	1	1	100	4	4	4	4	1	1	2.46	2.50E+00