onset	duration	Block	Phase	Trial	Cue	Image	CorrResp	Resp	Accuracy	ISI	RT_from_CueOnset	ITI
0.51	2	2	1	1	1	2	2	2	1	1	3.08	5.00E-01
5.3	2	2	1	2	3	3	3	3	1	1	2.78	1.50E+00
11.08	2	2	1	3	1	2	2	2	1	1	2.11	8
23.35	2	2	1	4	4	3	3	3	1	1	2.43	5.00E-01
28.13	2	2	1	5	4	4	4	4	1	1	2.36	3.50E+00
35.92	2	2	1	6	1	2	2	2	1	1	2.17	5.00E-01
40.7	2	2	1	7	4	4	4	4	1	1	2.17	5.00E-01
45.48	2	2	1	8	1	2	2	2	1	1	2.15	5.00E-01
50.27	2	2	1	9	2	1	1	1	1	1	1.28	2.50E+00
57.05	2	2	1	10	3	3	3	3	1	1	1.02	4.50E+00
65.84	2	2	1	11	4	3	3	4	0	1	0.72	2.50E+00
72.62	2	2	1	12	3	3	3	3	1	1	0.88	2.50E+00
79.4	2	2	1	13	4	4	4	4	1	1	0.54	1.50E+00
85.19	2	2	1	14	1	1	1	1	1	1	2.43	3.50E+00
92.97	2	2	1	15	2	1	1	1	1	1	0.63	5.00E-01
97.75	2	2	1	16	1	1	1	2	0	1	0.72	5.00E-01
102.54	2	2	1	17	1	2	2	2	1	1	0.49	5.50E+00
112.32	2	2	1	18	3	3	3	3	1	1	0.56	8
124.59	2	2	1	19	2	2	2	2	1	1	2.33	1.50E+00
130.37	2	2	1	20	4	4	4	4	1	1	0.75	5.00E-01
135.14	2	2	1	21	2	1	1	1	1	1	0.6	2.50E+00
141.92	2	2	1	22	1	2	2	2	1	1	2.26	5.00E-01
146.71	2	2	1	23	2	2	2	2	1	1	2.41	1.50E+00
152.49	2	2	1	24	3	3	3	3	1	1	0.64	1.50E+00
158.28	2	2	1	25	1	2	2	2	1	1	0.64	3.50E+00
166.06	2	2	1	26	1	1	1	1	1	1	2.29	5.00E-01
170.84	2	2	1	27	2	2	2	1	0	1	0.5	1.50E+00
176.63	2	2	1	28	4	3	3	4	0	1	0.65	1.50E+00
182.41	2	2	1	29	3	4	4	3	0	1	0.69	5.00E-01
187.19	2	2	1	30	3	3	3	3	1	1	0.61	5.00E-01
191.98	2	2	1	31	3	3	3	3	1	1	0.63	5.00E-01
196.76	2	2	1	32	3	4	4	3	0	1	0.58	1.50E+00
202.54	2	2	1	33	4	4	4	4	1	1	0.8	5.00E-01
207.33	2	2	1	34	4	3	3	4	0	1	0.71	5.00E-01
212.11	2	2	1	35	1	1	1	2	0	1	0.53	4.50E+00
220.9	2	2	1	36	1	2	2	2	1	1	0.56	5.00E-01
225.68	2	2	1	37	3	3	3	3	1	1	0.6	5.00E-01
230.46	2	2	1	38	2	2	2	2	1	1	2.37	3.50E+00
238.25	2	2	1	39	3	3	3	3	1	1	0.59	5.00E-01
243.03	2	2	1	40	2	1	1	1	1	1	0.63	1.50E+00
248.81	2	2	1	41	3	4	4	4	1	1	2.21	5.50E+00
258.6	2	2	1	42	1	1	1	2	0	1	0.6	1.50E+00
264.38	2	2	1	43	2	1	1	1	1	1	0.57	1.50E+00
270.17	2	2	1	44	4	4	4	4	1	1	0.71	3.50E+00
277.95	2	2	1	45	2	1	1	1	1	1	2.31	1.50E+00
283.73	2	2	1	46	3	4	4	4	1	1	2.3	4.50E+00
292.52	2	2	1	47	3	4	4	3	0	1	0.65	5.00E-01
297.3	2	2	1	48	2	2	2	1	0	1	0.61	5.50E+00
307.07	2	2	1	49	2	1	1	1	1	1	0.64	5.50E+00
316.84	2	2	1	50	2	1	1	1	1	1	0.54	2.50E+00
323.62	2	2	1	51	1	1	1	1	1	1	2.33	5.00E-01
328.4	2	2	1	52	1	2	2	2	1	1	0.54	5.00E-01
333.19	2	2	1	53	1	2	2	2	1	1	0.57	2.50E+00
339.97	2	2	1	54	3	3	3	3	1	1	2.34	3.50E+00
347.75	2	2	1	55	2	2	2	2	1	1	2.21	1.50E+00
353.54	2	2	1	56	2	2	2	1	0	1	0.63	5.00E-01
358.32	2	2	1	57	4	3	3	4	0	1	0.62	5.00E-01
363.11	2	2	1	58	2	2	2	1	0	1	0.57	5.00E-01
367.89	2	2	1	59	4	4	4	4	1	1	0.57	1.50E+00
373.67	2	2	1	60	3	4	4	3	0	1	0.65	5.00E-01
378.46	2	2	1	61	4	4	4	4	1	1	0.55	2.50E+00
385.24	2	2	1	62	4	4	4	4	1	1	0.65	2.50E+00
392.02	2	2	1	63	3	4	4	3	0	1	0.67	5.00E-01
396.81	2	2	1	64	1	2	2	2	1	1	0.55	5.00E-01
401.59	2	2	1	65	3	3	3	3	1	1	0.65	5.00E-01
406.38	2	2	1	66	2	1	1	1	1	1	0.45	5.00E-01
411.16	2	2	1	67	2	2	2	2	1	1	2.18	5.00E-01
415.93	2	2	1	68	1	2	2	2	1	1	0.59	5.00E-01
420.71	2	2	1	69	1	1	1	2	0	1	0.64	1.50E+00
426.49	2	2	1	70	1	1	1	2	0	1	0.56	5.00E-01
431.28	2	2	1	71	2	2	2	1	0	1	0.58	5.00E-01
436.06	2	2	1	72	4	3	3	4	0	1	0.67	1.50E+00
441.84	2	2	1	73	4	4	4	4	1	1	0.58	5.00E-01
446.63	2	2	1	74	1	1	1	2	0	1	0.7	4.50E+00
455.41	2	2	1	75	4	4	4	4	1	1	0.54	5.50E+00
465.2	2	2	1	76	2	1	1	1	1	1	0.59	2.50E+00
471.98	2	2	1	77	4	4	4	4	1	1	0.65	5.00E-01
476.76	2	2	1	78	1	1	1	1	1	1	2.51	5.00E-01
481.55	2	2	1	79	3	3	3	3	1	1	0.7	5.00E-01
486.33	2	2	1	80	4	4	4	4	1	1	2.39	1.50E+00
492.11	2	2	1	81	3	3	3	3	1	1	2.25	5.00E-01
496.9	2	2	1	82	4	4	4	4	1	1	2.41	5.00E-01
501.68	2	2	1	83	2	1	1	1	1	1	2.31	3.50E+00
509.47	2	2	1	84	1	1	1	1	1	1	2.27	1.50E+00
515.25	2	2	1	85	3	3	3	3	1	1	2.34	1.50E+00
521.03	2	2	1	86	4	4	4	4	1	1	2.44	1.50E+00
526.82	2	2	1	87	2	1	1	1	1	1	2.28	4.50E+00
535.6	2	2	1	88	4	4	4	4	1	1	2.43	5.00E-01
540.38	2	2	1	89	1	1	1	1	1	1	2.18	5.00E-01
545.17	2	2	1	90	4	3	3	4	0	1	0.6	5.50E+00
554.95	2	2	1	91	3	3	3	3	1	1	0.68	2.50E+00
561.74	2	2	1	92	2	2	2	1	0	1	0.68	5.50E+00
571.52	2	2	1	93	3	3	3	3	1	1	0.57	3.50E+00
579.3	2	2	1	94	2	2	2	1	0	1	0.55	1.50E+00
585.09	2	2	1	95	4	4	4	4	1	1	0.64	5.00E-01
589.87	2	2	1	96	3	3	3	3	1	1	0.56	1.50E+00
595.65	2	2	1	97	2	1	1	1	1	1	2.17	5.00E-01
600.44	2	2	1	98	4	3	3	3	1	1	2.34	3.50E+00
608.22	2	2	1	99	1	1	1	2	0	1	0.57	5.00E-01
613.01	2	2	1	100	3	3	3	3	1	1	0.63	5.00E-01