onset	duration	Block	Phase	Trial	Cue	Image	CorrResp	Resp	Accuracy	ISI	RT_from_CueOnset	ITI
0.52	3	2	2	101	1	2	2	1	0	4	0.92	1.50E+00
10.28	3	2	2	102	3	3	3	3	1	8	1.57	5.50E+00
28.05	3	2	2	103	3	3	3	3	1	8	1.6	5.00E-01
40.82	3	2	2	104	4	3	3	4	0	8	1.43	3.50E+00
56.59	3	2	2	105	3	3	3	3	1	4	5.18	2.50E+00
67.35	3	2	2	106	3	3	3	3	1	8	10.03	1.50E+00
81.12	3	2	2	107	4	3	3	4	0	6	7.47	5.00E-01
91.89	3	2	2	108	1	2	2	1	0	4	0.95	1.50E+00
101.67	3	2	2	109	1	1	1	1	1	4	5.67	7.50E+00
117.44	3	2	2	110	2	2	2	2	1	6	1.3	8
135.71	3	2	2	111	2	2	2	2	1	8	3.74	7.50E+00
155.48	3	2	2	112	2	2	2	2	1	6	7.33	6.50E+00
172.24	3	2	2	113	4	3	3	3	1	4	5.9	8
188.51	3	2	2	114	3	3	3	3	1	4	5.81	4.50E+00
201.28	3	2	2	115	4	3	3	3	1	8	9.8	1.50E+00
215.05	3	2	2	116	2	2	2	2	1	4	5.6	5.00E-01
223.81	3	2	2	117	1	2	2	1	0	6	7.54	5.00E-01
234.58	3	2	2	118	2	1	1	1	1	8	10.72	4.50E+00
251.35	3	2	2	119	2	1	1	1	1	4	6.97	5.00E-01
260.13	3	2	2	120	4	4	4	4	1	8	9.67	3.50E+00
275.9	3	2	2	121	4	4	4	4	1	8	9.81	3.50E+00
291.67	3	2	2	122	2	2	2	2	1	6	7.73	5.00E-01
302.44	3	2	2	123	2	2	2	2	1	8	10.17	1.50E+00
316.2	3	2	2	124	4	4	4	4	1	6	8.1	6.50E+00
332.97	3	2	2	125	2	2	2	2	1	8	10.47	5.00E-01
345.74	3	2	2	126	1	1	1	1	1	4	0.74	1.50E+00
355.52	3	2	2	127	3	3	3	3	1	6	1.28	4.50E+00
370.29	3	2	2	128	1	2	2	1	0	6	0.74	1.50E+00
382.06	3	2	2	129	3	4	4	3	0	8	0.9	3.50E+00
397.83	3	2	2	130	1	1	1	1	1	6	0.87	3.50E+00
411.59	3	2	2	131	1	1	1	1	1	6	0.93	1.50E+00
423.36	3	2	2	132	2	1	1	2	0	6	2.63	8
441.63	3	2	2	133	3	3	3	3	1	6	1.23	4.50E+00
456.4	3	2	2	134	1	1	1	1	1	8	1.06	5.00E-01
469.16	3	2	2	135	3	4	4	4	1	6	7.95	3.50E+00
482.93	3	2	2	136	1	1	1	1	1	6	0.7	8
501.2	3	2	2	137	4	4	4	4	1	4	5.48	8
517.47	3	2	2	138	2	1	1	2	0	8	9.87	8
537.74	3	2	2	139	1	1	1	1	1	4	0.56	5.00E-01
546.52	3	2	2	140	3	3	3	3	1	6	4.11	8
564.79	3	2	2	141	1	2	2	1	0	8	2.17	2.50E+00
579.55	3	2	2	142	1	1	1	1	1	4	5.7	1.50E+00
589.34	3	2	2	143	1	1	1	1	1	6	8.3	1.50E+00
601.11	3	2	2	144	3	4	4	4	1	4	5.73	5.00E-01
609.89	3	2	2	145	2	1	1	2	0	4	5.53	5.00E-01
618.67	3	2	2	146	4	4	4	4	1	4	5.6	6.50E+00
633.44	3	2	2	147	2	2	2	2	1	4	5.61	5.50E+00
647.21	3	2	2	148	4	4	4	4	1	4	5.74	1.50E+00
656.99	3	2	2	149	4	4	4	4	1	4	5.48	5.00E-01
665.78	3	2	2	150	1	1	1	1	1	6	7.48	1.50E+00
677.54	3	2	2	151	2	1	1	2	0	8	9.63	1.50E+00
691.31	3	2	2	152	4	4	4	4	1	8	9.57	1.50E+00
705.08	3	2	2	153	1	1	1	2	0	8	10.5	1.50E+00
718.85	3	2	2	154	3	4	4	4	1	6	7.57	5.00E-01
729.63	3	2	2	155	4	4	4	4	1	4	5.53	3.50E+00
741.4	3	2	2	156	2	2	2	2	1	6	1.42	1.50E+00
753.17	3	2	2	157	2	2	2	2	1	4	6.78	5.00E-01
761.95	3	2	2	158	3	4	4	4	1	4	6.18	4.50E+00
774.72	3	2	2	159	3	4	4	4	1	8	9.6	5.00E-01
787.49	3	2	2	160	4	4	4	4	1	8	9.52	8
807.75	3	2	2	161	1	1	1	1	1	8	0.74	2.50E+00
822.52	3	2	2	162	2	2	2	1	0	4	6.4	3.50E+00
834.29	3	2	2	163	3	3	3	3	1	6	7.2	5.50E+00
850.06	3	2	2	164	3	3	3	3	1	8	1.33	2.50E+00
864.82	3	2	2	165	4	3	3	4	0	6	7.87	8
883.09	3	2	2	166	4	3	3	3	1	4	5.77	5.00E-01
891.88	3	2	2	167	3	3	3	3	1	4	5.84	5.00E-01
900.66	3	2	2	168	2	2	2	2	1	4	5.1	1.50E+00
910.44	3	2	2	169	4	4	4	4	1	6	7.75	6.50E+00
927.21	3	2	2	170	2	1	1	1	1	6	9.05	5.00E-01
937.98	3	2	2	171	3	4	4	3	0	8	9.41	4.50E+00
954.75	3	2	2	172	4	4	4	4	1	6	7.83	1.50E+00
966.53	3	2	2	173	1	1	1	1	1	8	9.67	3.50E+00
982.3	3	2	2	174	2	2	2	2	1	8	9.35	3.50E+00
998.07	3	2	2	175	4	3	3	3	1	6	8.13	2.50E+00
1010.83	3	2	2	176	1	2	2	1	0	8	1.25	6.50E+00
1029.6	3	2	2	177	3	3	3	3	1	4	6.43	5.00E-01
1038.39	3	2	2	178	4	3	3	3	1	4	6.13	5.00E-01
1047.17	3	2	2	179	3	4	4	4	1	6	8.01	3.50E+00
1060.94	3	2	2	180	1	1	1	1	1	4	0.65	5.00E-01