onset	duration	Block	Phase	Trial	Cue	Image	CorrResp	Resp	Accuracy	ISI	RT_from_CueOnset	ITI
0.5	3	2	2	101	3	4	4	3	0	4	1.34	3.50E+00
12.29	3	2	2	102	4	3	3	4	0	4	1.04	3.50E+00
24.07	3	2	2	103	3	3	3	3	1	6	7.8	5.00E-01
34.86	3	2	2	104	1	1	1	1	1	6	1.78	5.00E-01
45.64	3	2	2	105	3	3	3	3	1	4	2.26	3.50E+00
57.42	3	2	2	106	1	2	2	1	0	4	1.2	3.50E+00
69.21	3	2	2	107	4	3	3	4	0	6	0.83	5.00E-01
79.99	3	2	2	108	4	4	4	4	1	6	0.69	1.50E+00
91.78	3	2	2	109	4	4	4	4	1	8	0.72	5.50E+00
109.56	3	2	2	110	1	2	2	1	0	4	1.23	8
125.85	3	2	2	111	1	2	2	1	0	6	0.65	5.00E-01
136.63	3	2	2	112	3	4	4	3	0	4	1.77	2.50E+00
147.41	3	2	2	113	1	1	1	2	0	4	1.69	4.50E+00
160.2	3	2	2	114	2	2	2	2	1	6	0.84	3.50E+00
173.98	3	2	2	115	2	2	2	2	1	6	0.71	1.50E+00
185.77	3	2	2	116	4	4	4	4	1	6	0.99	7.50E+00
203.55	3	2	2	117	2	2	2	2	1	4	0.84	8
219.84	3	2	2	118	4	3	3	4	0	8	2.04	5.00E-01
232.62	3	2	2	119	2	2	2	2	1	8	0.89	5.00E-01
245.4	3	2	2	120	2	2	2	2	1	6	0.65	1.50E+00
257.19	3	2	2	121	3	4	4	3	0	8	1.33	8
277.47	3	2	2	122	2	2	2	2	1	8	9.71	1.50E+00
291.26	3	2	2	123	1	1	1	1	1	8	0.72	5.00E-01
304.04	3	2	2	124	3	3	3	3	1	6	0.67	4.50E+00
318.83	3	2	2	125	2	2	2	2	1	4	0.93	3.50E+00
330.61	3	2	2	126	2	2	2	2	1	4	0.49	1.50E+00
340.39	3	2	2	127	1	2	2	1	0	6	0.78	5.00E-01
351.18	3	2	2	128	1	2	2	1	0	6	0.71	5.50E+00
366.96	3	2	2	129	3	3	3	3	1	8	0.82	6.50E+00
385.75	3	2	2	130	3	4	4	3	0	6	0.69	1.50E+00
397.53	3	2	2	131	2	2	2	2	1	6	0.79	6.50E+00
414.32	3	2	2	132	3	4	4	3	0	6	0.79	5.00E-01
425.1	3	2	2	133	4	4	4	4	1	8	0.69	5.00E-01
437.88	3	2	2	134	4	4	4	4	1	4	0.66	7.50E+00
453.67	3	2	2	135	2	2	2	2	1	4	5.57	8
469.95	3	2	2	136	4	3	3	4	0	4	0.66	3.50E+00
481.74	3	2	2	137	1	1	1	1	1	4	0.78	1.50E+00
491.52	3	2	2	138	1	1	1	1	1	6	0.65	5.00E-01
502.3	3	2	2	139	1	2	2	1	0	8	0.55	5.00E-01
515.09	3	2	2	140	2	1	1	2	0	8	0.48	8
535.37	3	2	2	141	4	3	3	4	0	6	0.78	1.50E+00
547.16	3	2	2	142	1	2	2	1	0	8	0.9	4.50E+00
563.94	3	2	2	143	3	4	4	3	0	8	0.67	5.00E-01
576.73	3	2	2	144	1	1	1	1	1	6	0.68	6.50E+00
593.51	3	2	2	145	1	1	1	1	1	8	0.78	1.50E+00
607.3	3	2	2	146	4	3	3	4	0	8	0.74	1.50E+00
621.08	3	2	2	147	3	3	3	3	1	6	0.83	3.50E+00
634.85	3	2	2	148	4	3	3	4	0	4	0.7	1.50E+00
644.63	3	2	2	149	3	4	4	3	0	4	0.65	4.50E+00
657.41	3	2	2	150	4	4	4	4	1	8	0.71	6.50E+00
676.2	3	2	2	151	1	1	1	1	1	8	1.09	3.50E+00
691.98	3	2	2	152	1	1	1	1	1	4	5.74	1.50E+00
701.77	3	2	2	153	3	3	3	3	1	4	0.79	2.50E+00
712.55	3	2	2	154	4	4	4	4	1	6	0.78	5.00E-01
723.34	3	2	2	155	3	3	3	3	1	6	0.69	4.50E+00
738.1	3	2	2	156	2	1	1	2	0	6	1.39	1.50E+00
749.89	3	2	2	157	2	1	1	2	0	4	0.47	3.50E+00
761.67	3	2	2	158	4	3	3	4	0	8	0.7	1.50E+00
775.46	3	2	2	159	3	4	4	3	0	8	0.65	4.50E+00
792.24	3	2	2	160	4	3	3	4	0	6	1.06	1.50E+00
804.02	3	2	2	161	4	3	3	4	0	4	0.69	8
820.31	3	2	2	162	2	1	1	2	0	4	0.68	2.50E+00
831.09	3	2	2	163	3	4	4	3	0	6	0.8	5.00E-01
841.88	3	2	2	164	4	4	4	3	0	4	0.8	5.50E+00
855.66	3	2	2	165	4	4	4	3	0	8	0.71	8
875.95	3	2	2	166	2	2	2	2	1	8	0.68	3.50E+00
891.73	3	2	2	167	1	2	2	1	0	4	0.63	1.50E+00
901.51	3	2	2	168	1	1	1	1	1	8	0.62	5.00E-01
914.3	3	2	2	169	3	3	3	3	1	8	0.84	6.50E+00
933.08	3	2	2	170	3	3	3	3	1	4	0.57	2.50E+00
943.87	3	2	2	171	3	4	4	3	0	8	0.53	5.00E-01
956.65	3	2	2	172	1	1	1	1	1	6	0.66	5.00E-01
967.44	3	2	2	173	2	1	1	2	0	6	0.52	8
985.72	3	2	2	174	2	1	1	2	0	4	0.55	1.50E+00
995.5	3	2	2	175	3	3	3	3	1	8	0.65	5.00E-01
1008.29	3	2	2	176	2	2	2	2	1	8	0.49	8
1028.57	3	2	2	177	2	1	1	2	0	8	0.58	5.00E-01
1041.36	3	2	2	178	2	1	1	2	0	8	0.61	2.50E+00
1056.14	3	2	2	179	1	1	1	1	1	4	0.71	1.50E+00
1065.93	3	2	2	180	4	4	4	4	1	6	0.73	5.00E-01