onset	duration	Block	Phase	Trial	Cue	Image	CorrResp	Resp	Accuracy	ISI	RT_from_CueOnset	ITI
0.5	3	1	2	101	4	3	3	3	1	4	6.38	4.50E+00
13.28	3	1	2	102	4	4	4	3	0	6	2.75	1.50E+00
25.05	3	1	2	103	4	4	4	4	1	6	7.95	1.50E+00
36.82	3	1	2	104	4	3	3	4	0	6	8.01	5.00E-01
47.59	3	1	2	105	1	2	2	2	1	6	8.8	3.50E+00
61.35	3	1	2	106	1	1	1	1	1	8	11.12	6.50E+00
80.12	3	1	2	107	1	2	2	2	1	6	8.48	5.00E-01
90.89	3	1	2	108	3	4	4	4	1	8	10.04	5.50E+00
108.66	3	1	2	109	1	1	1	2	0	8	10.68	4.50E+00
125.42	3	1	2	110	2	2	2	n/a	0	6	n/a	6.50E+00
142.19	3	1	2	111	1	1	1	1	1	6	7.93	4.50E+00
156.96	3	1	2	112	4	4	4	4	1	6	7.87	5.00E-01
167.73	3	1	2	113	4	4	4	4	1	8	9.65	4.50E+00
184.5	3	1	2	114	2	2	2	2	1	4	6.18	8
200.76	3	1	2	115	1	1	1	1	1	4	5.46	1.50E+00
210.53	3	1	2	116	4	4	4	4	1	4	5.92	3.50E+00
222.3	3	1	2	117	1	2	2	2	1	4	6.02	8
238.57	3	1	2	118	3	3	3	3	1	8	9.72	2.50E+00
253.33	3	1	2	119	3	4	4	4	1	8	9.72	3.50E+00
269.1	3	1	2	120	1	1	1	2	0	6	8.17	5.00E-01
279.87	3	1	2	121	1	1	1	1	1	6	7.88	5.00E-01
290.64	3	1	2	122	4	3	3	3	1	8	9.71	3.50E+00
306.4	3	1	2	123	2	2	2	2	1	4	6.17	5.50E+00
320.17	3	1	2	124	4	3	3	3	1	6	8.02	5.00E-01
330.94	3	1	2	125	1	1	1	1	1	4	2.71	8
347.21	3	1	2	126	3	4	4	4	1	4	6.03	1.50E+00
356.97	3	1	2	127	3	3	3	3	1	8	2.61	5.00E-01
369.74	3	1	2	128	2	2	2	2	1	8	10.83	5.00E-01
382.51	3	1	2	129	1	1	1	1	1	6	8.04	6.50E+00
399.28	3	1	2	130	3	3	3	3	1	6	8.31	5.00E-01
410.04	3	1	2	131	2	2	2	2	1	6	8.58	3.50E+00
423.81	3	1	2	132	4	4	4	4	1	8	9.96	3.50E+00
439.58	3	1	2	133	3	3	3	4	0	6	8.29	6.50E+00
456.35	3	1	2	134	1	1	1	1	1	6	8.19	8
474.61	3	1	2	135	2	2	2	2	1	8	9.88	2.50E+00
489.38	3	1	2	136	2	2	2	2	1	4	6.03	1.50E+00
499.15	3	1	2	137	2	2	2	2	1	8	10.1	8
519.42	3	1	2	138	4	3	3	3	1	4	6.04	5.00E-01
528.18	3	1	2	139	4	4	4	4	1	6	7.75	3.50E+00
541.95	3	1	2	140	4	4	4	4	1	8	10.85	1.50E+00
555.72	3	1	2	141	3	3	3	3	1	8	9.7	2.50E+00
570.49	3	1	2	142	3	4	4	4	1	6	8.02	1.50E+00
582.26	3	1	2	143	1	2	2	2	1	8	11.38	5.00E-01
595.02	3	1	2	144	4	4	4	4	1	6	8.05	1.50E+00
606.79	3	1	2	145	1	1	1	1	1	4	6.29	1.50E+00
616.56	3	1	2	146	1	1	1	1	1	8	10.07	3.50E+00
632.33	3	1	2	147	4	4	4	4	1	8	10.53	5.00E-01
645.09	3	1	2	148	3	3	3	3	1	4	5.73	4.50E+00
657.86	3	1	2	149	4	4	4	4	1	8	10.67	1.50E+00
671.63	3	1	2	150	3	4	4	4	1	4	5.48	5.00E-01
680.39	3	1	2	151	3	3	3	4	0	4	0.94	5.00E-01
689.16	3	1	2	152	2	2	2	2	1	8	9.62	2.50E+00
703.93	3	1	2	153	4	3	3	3	1	8	10.61	7.50E+00
723.7	3	1	2	154	3	3	3	3	1	6	7.94	5.00E-01
734.46	3	1	2	155	2	2	2	2	1	8	2.18	2.50E+00
749.23	3	1	2	156	2	1	1	1	1	8	5.47	5.50E+00
767	3	1	2	157	3	3	3	3	1	8	9.91	5.00E-01
779.77	3	1	2	158	1	1	1	1	1	4	6.13	3.50E+00
791.54	3	1	2	159	1	1	1	2	0	8	2.95	7.50E+00
811.3	3	1	2	160	3	3	3	3	1	6	7.88	1.50E+00
823.07	3	1	2	161	4	4	4	4	1	4	5.43	3.50E+00
834.84	3	1	2	162	3	3	3	3	1	4	5.9	5.00E-01
843.61	3	1	2	163	3	3	3	3	1	4	5.47	4.50E+00
856.37	3	1	2	164	1	1	1	1	1	8	2.47	1.50E+00
870.14	3	1	2	165	4	3	3	3	1	4	6.04	8
886.41	3	1	2	166	2	1	1	2	0	8	2.48	1.50E+00
900.18	3	1	2	167	2	2	2	2	1	4	6.38	3.50E+00
911.94	3	1	2	168	2	1	1	2	0	4	6.01	6.50E+00
926.71	3	1	2	169	2	2	2	1	0	4	6.42	1.50E+00
936.48	3	1	2	170	1	1	1	1	1	4	1.85	5.00E-01
945.25	3	1	2	171	2	1	1	1	1	6	8.75	1.50E+00
957.01	3	1	2	172	3	4	4	4	1	6	7.8	1.50E+00
968.78	3	1	2	173	2	2	2	1	0	6	8.45	1.50E+00
980.55	3	1	2	174	2	2	2	1	0	6	8.4	5.00E-01
991.32	3	1	2	175	4	4	4	4	1	4	5.92	8
1007.58	3	1	2	176	3	3	3	3	1	8	9.83	1.50E+00
1021.35	3	1	2	177	3	3	3	3	1	6	7.7	8
1039.62	3	1	2	178	2	2	2	2	1	6	8.55	5.00E-01
1050.39	3	1	2	179	2	2	2	1	0	4	5.86	5.00E-01
1059.15	3	1	2	180	1	1	1	1	1	4	1.32	8