onset	duration	Block	Phase	Trial	Cue	Image	CorrResp	Resp	Accuracy	ISI	RT_from_CueOnset	ITI
0.52	3	1	2	101	1	1	1	1	1	6	7.89	5.00E-01
11.3	3	1	2	102	2	2	2	2	1	6	7.5	5.00E-01
22.08	3	1	2	103	4	3	3	3	1	4	5.87	5.00E-01
30.87	3	1	2	104	3	4	4	4	1	8	9.65	5.50E+00
48.65	3	1	2	105	3	4	4	4	1	4	5.3	3.50E+00
60.44	3	1	2	106	4	4	4	3	0	6	1.69	6.50E+00
77.22	3	1	2	107	2	2	2	2	1	4	5.27	5.00E-01
86.01	3	1	2	108	4	4	4	4	1	8	9.87	5.00E-01
98.79	3	1	2	109	2	2	2	2	1	4	1.55	8
115.07	3	1	2	110	2	2	2	2	1	8	1.69	2.50E+00
129.86	3	1	2	111	4	4	4	4	1	6	7.61	1.50E+00
141.64	3	1	2	112	1	1	1	1	1	4	0.81	6.50E+00
156.43	3	1	2	113	1	1	1	1	1	4	1.44	1.50E+00
166.21	3	1	2	114	3	4	4	4	1	8	9.67	1.50E+00
180	3	1	2	115	1	1	1	1	1	6	1	5.00E-01
190.78	3	1	2	116	4	3	3	4	0	4	1.46	5.00E-01
199.56	3	1	2	117	4	4	4	4	1	4	5.83	5.00E-01
208.35	3	1	2	118	3	3	3	4	0	6	1.67	2.50E+00
221.13	3	1	2	119	1	1	1	1	1	8	1.06	5.00E-01
233.92	3	1	2	120	1	2	2	1	0	6	0.95	6.50E+00
250.7	3	1	2	121	2	1	1	2	0	8	1	1.50E+00
264.48	3	1	2	122	4	3	3	3	1	6	8.21	3.50E+00
278.27	3	1	2	123	4	4	4	4	1	6	7.6	5.00E-01
289.05	3	1	2	124	1	2	2	1	0	6	8.14	5.00E-01
299.84	3	1	2	125	2	2	2	2	1	4	5.81	3.50E+00
311.62	3	1	2	126	3	4	4	4	1	4	1.28	1.50E+00
321.4	3	1	2	127	3	3	3	4	0	6	1.14	4.50E+00
336.19	3	1	2	128	2	1	1	1	1	6	7.74	8
354.46	3	1	2	129	1	1	1	1	1	8	9.9	4.50E+00
371.24	3	1	2	130	1	1	1	1	1	8	1.7	3.50E+00
387.03	3	1	2	131	4	3	3	3	1	8	9.78	1.50E+00
400.81	3	1	2	132	1	2	2	1	0	4	1.58	8
417.09	3	1	2	133	4	3	3	3	1	6	2.25	8
435.38	3	1	2	134	1	1	1	1	1	4	5.8	5.00E-01
444.16	3	1	2	135	4	4	4	3	0	8	1.26	3.50E+00
459.95	3	1	2	136	4	4	4	3	0	8	9.88	5.00E-01
472.73	3	1	2	137	2	1	1	1	1	8	9.38	1.50E+00
486.52	3	1	2	138	2	2	2	1	0	6	1.48	4.50E+00
501.3	3	1	2	139	2	2	2	2	1	8	9.98	1.50E+00
515.08	3	1	2	140	4	3	3	4	0	6	7.37	8
533.37	3	1	2	141	2	2	2	2	1	8	10	5.00E-01
546.15	3	1	2	142	3	3	3	3	1	6	8.52	3.50E+00
559.94	3	1	2	143	2	2	2	2	1	4	1.94	4.50E+00
572.72	3	1	2	144	3	4	4	3	0	6	1.12	5.00E-01
583.51	3	1	2	145	3	3	3	3	1	6	8.1	1.50E+00
595.29	3	1	2	146	2	2	2	2	1	6	1.37	4.50E+00
610.07	3	1	2	147	1	2	2	1	0	8	9.6	3.50E+00
625.86	3	1	2	148	2	2	2	2	1	8	1.73	2.50E+00
640.64	3	1	2	149	2	2	2	2	1	6	1.15	1.50E+00
652.43	3	1	2	150	4	3	3	3	1	8	10.11	1.50E+00
666.21	3	1	2	151	4	3	3	3	1	4	5.71	4.50E+00
679	3	1	2	152	2	2	2	2	1	4	5.4	5.00E-01
687.78	3	1	2	153	3	4	4	4	1	6	7.77	3.50E+00
701.56	3	1	2	154	3	3	3	4	0	8	1.07	8
721.85	3	1	2	155	2	2	2	2	1	8	1.05	1.50E+00
735.63	3	1	2	156	1	1	1	1	1	8	1.7	5.50E+00
753.42	3	1	2	157	4	4	4	3	0	6	1.99	5.50E+00
769.2	3	1	2	158	1	1	1	1	1	4	1.21	8
785.49	3	1	2	159	3	4	4	4	1	6	8.1	1.50E+00
797.27	3	1	2	160	3	3	3	4	0	4	1.61	3.50E+00
809.05	3	1	2	161	1	1	1	1	1	4	5.77	1.50E+00
818.84	3	1	2	162	2	2	2	2	1	4	1.49	7.50E+00
834.62	3	1	2	163	4	4	4	3	0	8	9.9	1.50E+00
848.41	3	1	2	164	1	1	1	1	1	4	1.64	7.50E+00
864.19	3	1	2	165	3	4	4	4	1	4	5.8	5.00E-01
872.98	3	1	2	166	1	1	1	1	1	6	1.17	5.00E-01
883.76	3	1	2	167	4	3	3	3	1	4	2.61	1.50E+00
893.54	3	1	2	168	2	2	2	2	1	6	2.43	1.50E+00
905.33	3	1	2	169	1	1	1	1	1	6	1.05	5.00E-01
916.11	3	1	2	170	2	1	1	2	0	4	1.58	2.50E+00
926.9	3	1	2	171	4	3	3	3	1	8	2.01	1.50E+00
940.68	3	1	2	172	3	3	3	4	0	8	1.77	2.50E+00
955.46	3	1	2	173	3	4	4	4	1	8	9.64	3.50E+00
971.25	3	1	2	174	4	4	4	3	0	4	1.59	6.50E+00
986.03	3	1	2	175	3	3	3	4	0	4	5.83	8
1002.32	3	1	2	176	1	1	1	1	1	8	1.73	3.50E+00
1018.1	3	1	2	177	1	1	1	1	1	6	1.76	5.00E-01
1028.89	3	1	2	178	3	3	3	3	1	8	10.14	8
1049.17	3	1	2	179	3	3	3	3	1	4	5.67	5.00E-01
1057.95	3	1	2	180	3	4	4	3	0	8	1.29	6.50E+00